{
    "resourceType": "Bundle",
    "type": "transaction",
    "entry": [
        {
            "resource": {
                "resourceType": "Patient",
                "id": "a9dfeaa3-5a87-4487-9c56-1f2046bb8c7a",
                "text": {
                    "status": "generated",
                    "div": "<div xmlns=\"http://www.w3.org/1999/xhtml\">loaded from the datastore</div>"
                },
                "active": true,
                "name": [
                    {
                        "id": "someId",
                        "family": "Doe",
                        "given": [
                            "John"
                        ]
                    }
                ],
                "birthDate": "2021-08-20",
                "multipleBirthInteger": 2,
                "generalPractitioner": [
                    {
                        "reference": "urn:uuid:55584c50-7e53-4fd8-be5e-975a9daba77f"
                    }
                ]
            },
            "request": {
                "id": "a9dfeaa3-5a87-4487-9c56-1f2046bb8c7a",
                "method": "PUT",
                "url": "Patient/a9dfeaa3-5a87-4487-9c56-1f2046bb8c7a"
            }
        },
        {
            "resource": {
                "resourceType": "Observation",
                "text": {
                    "status": "generated",
                    "div": "<div xmlns=\"http://www.w3.org/1999/xhtml\">GENERATED</div>"
                },
                "status": "final",
                "category": [
                    {
                        "coding": [
                            {
                                "system": "http://terminology.hl7.org/CodeSystem/observation-category",
                                "code": "vital-signs",
                                "display": "Vital Signs"
                            }
                        ],
                        "text": "Vital Signs"
                    }
                ],
                "code": {
                    "coding": [
                        {
                            "system": "http://loinc.org",
                            "code": "85354-9",
                            "display": "Blood pressure panel with all children optional"
                        }
                    ],
                    "text": "Blood pressure systolic & diastolic"
                },
                "subject": {
                    "reference": "Patient/1-2-3-4"
                },
                "bodySite": {
                    "coding": [
                        {
                            "system": "http://loinc.org",
                            "code": "55284-4"
                        }
                    ],
                    "text": "Blood pressure systolic & diastolic"
                },
                "component": [
                    {
                        "code": {
                            "coding": [
                                {
                                    "system": "http://loinc.org",
                                    "code": "8480-6"
                                }
                            ],
                            "text": "Systolic blood pressure"
                        },
                        "valueQuantity": {
                            "value": 124.9,
                            "unit": "mmHg"
                        }
                    },
                    {
                        "code": {
                            "coding": [
                                {
                                    "system": "http://loinc.org",
                                    "code": "8462-4"
                                }
                            ],
                            "text": "Diastolic blood pressure"
                        },
                        "valueQuantity": {
                            "value": 93.7,
                            "unit": "mmHg"
                        }
                    }
                ]
            },
            "request": {
                "method": "POST",
                "url": "Observation"
            }
        },
        {
            "resource": {
                "resourceType": "Medication",
                "id": "f9e2a3d2-daa0-426d-bf3e-207da23c7e68",
                "text": {
                    "status": "generated",
                    "div": "<div xmlns=\"http://www.w3.org/1999/xhtml\">GENERATED</div>"
                },
                "code": {
                    "coding": [
                        {
                            "system": "http://snomed.info/sct",
                            "code": "385057009",
                            "display": "Film-coated tablet (qualifier value)"
                        }
                    ],
                    "text": "Film-coated tablet (qualifier value)"
                },
                "ingredient": [
                    {
                        "itemCodeableConcept": {
                            "coding": [
                                {
                                    "system": "http://www.nlm.nih.gov/research/umls/rxnorm",
                                    "code": "315266",
                                    "display": "Acetaminophen 500 MG"
                                }
                            ]
                        },
                        "isActive": true,
                        "strength": {
                            "numerator": {
                                "value": 25,
                                "system": "http://unitsofmeasure.org",
                                "code": "mg"
                            },
                            "denominator": {
                                "value": 1,
                                "system": "http://terminology.hl7.org/CodeSystem/v3-orderableDrugForm",
                                "code": "Tab"
                            }
                        }
                    }
                ],
                "batch": {
                    "lotNumber": "947100100",
                    "expirationDate": "2030-01-01"
                }
            },
            "request": {
                "id": "f9e2a3d2-daa0-426d-bf3e-207da23c7e68",
                "method": "PUT",
                "url": "Medication/f9e2a3d2-daa0-426d-bf3e-207da23c7e68"
            }
        },
        {
            "resource": {
                "resourceType": "MedicationAdministration",
                "text": {
                    "status": "generated",
                    "div": "<div xmlns=\"http://www.w3.org/1999/xhtml\">GENERATED</div>"
                },
                "status": "completed",
                "medicationReference": {
                    "reference": "Medication/f9e2a3d2-daa0-426d-bf3e-207da23c7e68"
                },
                "subject": {
                    "reference": "Patient/a9dfeaa3-5a87-4487-9c56-1f2046bb8c7a"
                },
                "effectiveDateTime": "2021-08-20T13:21:06.200203-04:00",
                "performer": [
                    {
                        "actor": {
                            "reference": "Patient/a9dfeaa3-5a87-4487-9c56-1f2046bb8c7a"
                        }
                    }
                ],
                "dosage": {
                    "dose": {
                        "value": 1
                    }
                }
            },
            "request": {
                "method": "POST",
                "url": "MedicationAdministration"
            }
        }
    ]
}